Folder: xrd-app/Bg_sbtracted_data

File: bgsubtracted.csv
2theta,intensity
10.0,0.0
10.28,25.0377
10.56,47.0755
10.84,13.1132
11.12,0.0
11.4,33.1887
11.68,17.2265
11.96,31.2642
12.24,17.302
12.52,42.3397
12.8,28.3774
13.08,12.4152
13.36,49.4529
13.64,0.0
13.92,25.6283
14.2,81.0058
14.48,426.383
14.76,2654.76
15.04,277.138
15.32,55.5159
15.6,52.8935
15.88,8.27098
16.16,18.6485
16.44,0.0
16.72,24.4036
17.0,31.7811
17.28,10.1586
17.56,28.5362
17.84,35.9137
18.12,24.2912
18.4,7.66876
18.68,8.04629
18.96,20.4238
19.24,24.8013
19.52,16.1789
19.8,52.3228
20.08,53.4667
20.36,43.6106
20.64,62.7545
20.92,65.8984
21.2,50.0423
21.48,97.1862
21.76,129.33
22.04,66.474
22.32,54.6179
22.6,32.7618
22.88,32.9057
23.16,84.0496
23.44,67.1935
23.72,229.337
24.0,1158.48
24.28,5155.63
24.56,468.769
24.84,125.913
25.12,111.057
25.4,111.201
25.68,96.3447
25.96,70.4886
26.24,89.6325
26.52,33.7764
26.8,106.92
27.08,81.0642
27.36,71.5858
27.64,70.9444
27.92,74.303
28.2,249.662
28.48,1233.02
28.76,288.379
29.04,79.7374
29.32,119.096
29.6,578.455
29.88,1415.81
30.16,176.172
30.44,94.5305
30.72,579.889
31.0,75.2477
31.28,56.6063
31.56,30.9649
31.84,67.3235
32.12,47.6821
32.4,20.9998
32.68,36.1675
32.96,40.3353
33.24,16.5031
33.52,38.6708
33.8,85.8386
34.08,290.006
34.36,1210.17
34.64,1716.34
34.92,345.51
35.2,124.677
35.48,51.8452
35.76,71.0129
36.04,32.1807
36.32,7.34846
36.6,24.5162
36.88,19.684
37.16,0.0
37.44,104.02
37.72,385.187
38.0,155.355
38.28,80.5228
38.56,31.6906
38.84,36.8583
39.12,35.0261
39.4,39.1939
39.68,35.3616
39.96,26.5294
40.24,36.6972
40.52,35.1876
40.8,79.3985
41.08,37.6094
41.36,36.8202
41.64,66.0311
41.92,54.242
42.2,227.453
42.48,1042.66
42.76,1087.87
43.04,232.086
43.32,86.2964
43.6,70.5073
43.88,106.718
44.16,82.929
44.44,63.1399
44.72,83.3508
45.0,153.562
45.28,501.773
45.56,228.983
45.84,74.1943
46.12,38.4052
46.4,44.6161
46.68,37.827
46.96,41.0378
47.24,34.2487
47.52,0.0
47.8,35.6865
48.08,43.9421
48.36,44.1978
48.64,46.4535
48.92,76.7092
49.2,281.965
49.48,1129.22
49.76,991.476
50.04,248.732
50.32,129.988
50.6,84.2432
50.88,43.4989
51.16,82.7546
51.44,62.0102
51.72,136.266
52.0,463.522
52.28,232.777
52.56,73.0329
52.84,43.2886
53.12,10.5443
53.4,23.8
53.68,11.0556
53.96,25.1835
54.24,25.1835
54.52,216.183
54.8,57.1835
55.08,49.1835
55.36,101.183
55.64,250.183
55.92,550.183
56.2,249.183
56.48,93.1835
56.76,47.1835
57.04,85.1835
57.32,18.1835
57.6,17.1835
57.88,64.1835
58.16,177.183
58.44,97.1835
58.72,168.183
59.0,215.183
59.28,72.1835
59.56,31.1835
59.84,40.1835
60.12,35.1835
60.4,21.1835
60.68,52.779
60.96,44.4202
61.24,73.0615
61.52,187.703
61.8,470.344
62.08,199.985
62.36,47.6267
62.64,46.2679
62.92,24.9092
63.2,54.5505
63.48,67.1918
63.76,206.833
64.04,196.474
64.32,68.1156
64.6,57.7569
64.88,31.3982
65.16,45.0395
65.44,33.488
65.72,38.7437
66.0,53.9993
66.28,54.255
66.56,57.5107
66.84,142.766
67.12,350.022
67.4,505.278
67.68,257.533
67.96,127.789
68.24,122.045
68.52,57.3004
68.8,52.5561
69.08,80.8118
69.36,153.067
69.64,110.323
69.92,56.5788
70.2,17.8345
70.48,36.0901
70.76,31.3458
71.04,7.60148
71.32,36.8572
71.6,17.8512
71.88,40.6999
72.16,36.5485
72.44,137.397
72.72,120.246
73.0,85.0945
73.28,35.9432
73.56,38.7919
73.84,26.6406
74.12,26.4892
74.4,21.3379
74.68,40.1866
74.96,42.0352
75.24,33.8839
75.52,29.7326
75.8,31.5813
76.08,20.4299
76.36,21.2786
76.64,43.1273
76.92,44.976
77.2,49.8246
77.48,104.673
77.76,166.522
78.04,179.371
78.32,92.2193
78.6,68.068
78.88,53.9167
79.16,57.7653
79.44,81.614
79.72,109.463
80.0,97.3113
80.28,63.16
80.56,88.0087
80.84,54.8574
81.12,48.706
81.4,37.5547
81.68,38.4034
81.96,49.6836
82.24,48.7364
82.52,59.7892
82.8,188.842
83.08,230.895
83.36,167.948
83.64,74.0005
83.92,52.0534
84.2,60.1062
84.48,70.159
84.76,91.2118
85.04,84.2647
85.32,19.3175
85.6,28.3703
85.88,35.4232
86.16,29.476
86.44,0.0
86.72,25.5816
87.0,20.6345
87.28,51.6873
87.56,34.7401
87.84,77.7929
88.12,91.8458
88.4,58.8986
88.68,44.9514
88.96,58.0042
89.24,24.0571
89.52,24.1099
89.8,82.1627
90.0,38.4862

File: subtracted_data.csv
2theta,intensity
10.0,1014.0
10.28,995.962
10.56,977.925
10.84,959.887
11.12,941.849
11.4,923.811
11.68,905.774
11.96,887.736
12.24,869.698
12.52,851.66
12.8,833.623
13.08,815.585
13.36,797.547
13.64,779.509
13.92,763.372
14.2,747.994
14.48,732.617
14.76,717.239
15.04,701.862
15.32,686.484
15.6,671.107
15.88,655.729
16.16,640.351
16.44,624.974
16.72,609.596
17.0,594.219
17.28,578.841
17.56,563.464
17.84,548.086
18.12,532.709
18.4,517.331
18.68,501.954
18.96,486.576
19.24,471.199
19.52,455.821
19.8,449.677
20.08,443.533
20.36,437.389
20.64,431.246
20.92,425.102
21.2,418.958
21.48,412.814
21.76,406.67
22.04,400.526
22.32,394.382
22.6,388.238
22.88,382.094
23.16,375.95
23.44,369.807
23.72,363.663
24.0,357.519
24.28,351.375
24.56,345.231
24.84,339.087
25.12,332.943
25.4,326.799
25.68,320.655
25.96,314.511
26.24,308.368
26.52,302.224
26.8,296.08
27.08,289.936
27.36,285.414
27.64,283.056
27.92,280.697
28.2,278.338
28.48,275.98
28.76,273.621
29.04,271.263
29.32,268.904
29.6,266.545
29.88,264.187
30.16,261.828
30.44,259.47
30.72,257.111
31.0,254.752
31.28,252.394
31.56,250.035
31.84,247.677
32.12,245.318
32.4,243
32.68,240.832
32.96,238.665
33.24,236.497
33.52,234.329
33.8,232.161
34.08,229.994
34.36,227.826
34.64,225.658
34.92,223.49
35.2,221.323
35.48,219.155
35.76,216.987
36.04,214.819
36.32,212.652
36.6,210.484
36.88,208.316
37.16,206.148
37.44,203.98
37.72,201.813
38.0,199.645
38.28,197.477
38.56,195.309
38.84,193.142
39.12,190.974
39.4,188.806
39.68,186.638
39.96,184.471
40.24,182.303
40.52,181.812
40.8,181.602
41.08,181.391
41.36,181.18
41.64,180.969
41.92,180.758
42.2,180.547
42.48,180.336
42.76,180.125
43.04,179.914
43.32,179.704
43.6,179.493
43.88,179.282
44.16,179.071
44.44,178.86
44.72,178.649
45.0,178.438
45.28,178.227
45.56,178.017
45.84,177.806
46.12,177.595
46.4,177.384
46.68,177.173
46.96,176.962
47.24,176.751
47.52,176.54
47.8,176.314
48.08,176.058
48.36,175.802
48.64,175.547
48.92,175.291
49.2,175.035
49.48,174.779
49.76,174.524
50.04,174.268
50.32,174.012
50.6,173.757
50.88,173.501
51.16,173.245
51.44,172.99
51.72,172.734
52.0,172.478
52.28,172.223
52.56,171.967
52.84,171.711
53.12,171.456
53.4,171.2
53.68,170.944
53.96,170.817
54.24,170.817
54.52,170.817
54.8,170.817
55.08,170.817
55.36,170.817
55.64,170.817
55.92,170.817
56.2,170.817
56.48,170.817
56.76,170.817
57.04,170.817
57.32,170.817
57.6,170.817
57.88,170.817
58.16,170.817
58.44,170.817
58.72,170.817
59.0,170.817
59.28,170.817
59.56,170.817
59.84,170.817
60.12,170.817
60.4,170.817
60.68,170.221
60.96,169.58
61.24,168.938
61.52,168.297
61.8,167.656
62.08,167.015
62.36,166.373
62.64,165.732
62.92,165.091
63.2,164.449
63.48,163.808
63.76,163.167
64.04,162.526
64.32,161.884
64.6,161.243
64.88,160.602
65.16,159.961
65.44,159.512
65.72,159.256
66.0,159.001
66.28,158.745
66.56,158.489
66.84,158.234
67.12,157.978
67.4,157.722
67.68,157.467
67.96,157.211
68.24,156.955
68.52,156.7
68.8,156.444
69.08,156.188
69.36,155.933
69.64,155.677
69.92,155.421
70.2,155.166
70.48,154.91
70.76,154.654
71.04,154.399
71.32,154.143
71.6,154.149
71.88,154.3
72.16,154.451
72.44,154.603
72.72,154.754
73.0,154.905
73.28,155.057
73.56,155.208
73.84,155.359
74.12,155.511
74.4,155.662
74.68,155.813
74.96,155.965
75.24,156.116
75.52,156.267
75.8,156.419
76.08,156.57
76.36,156.721
76.64,156.873
76.92,157.024
77.2,157.175
77.48,157.327
77.76,157.478
78.04,157.629
78.32,157.781
78.6,157.932
78.88,158.083
79.16,158.235
79.44,158.386
79.72,158.537
80.0,158.689
80.28,158.84
80.56,158.991
80.84,159.143
81.12,159.294
81.4,159.445
81.68,159.597
81.96,160.316
82.24,161.264
82.52,162.211
82.8,163.158
83.08,164.105
83.36,165.052
83.64,165.999
83.92,166.947
84.2,167.894
84.48,168.841
84.76,169.788
85.04,170.735
85.32,171.683
85.6,172.63
85.88,173.577
86.16,174.524
86.44,175.471
86.72,176.418
87.0,177.366
87.28,178.313
87.56,179.26
87.84,180.207
88.12,181.154
88.4,182.101
88.68,183.049
88.96,183.996
89.24,184.943
89.52,185.89
89.8,186.837
,187.581