Folder: xrd-app/data

File: data.csv
2theta,intensity
10.0,1014.0
10.28,1021.0
10.56,1025.0
10.84,973.0
11.12,931.0
11.4,957.0
11.68,923.0
11.96,919.0
12.24,887.0
12.52,894.0
12.8,862.0
13.08,828.0
13.36,847.0
13.64,767.0
13.92,789.0
14.2,829.0
14.48,1159.0
14.76,3372.0
15.04,979.0
15.32,742.0
15.6,724.0
15.88,664.0
16.16,659.0
16.44,602.0
16.72,634.0
17.0,626.0
17.28,589.0
17.56,592.0
17.84,584.0
18.12,557.0
18.4,525.0
18.68,510.0
18.96,507.0
19.24,496.0
19.52,472.0
19.8,502.0
20.08,497.0
20.36,481.0
20.64,494.0
20.92,491.0
21.2,469.0
21.48,510.0
21.76,536.0
22.04,467.0
22.32,449.0
22.6,421.0
22.88,415.0
23.16,460.0
23.44,437.0
23.72,593.0
24.0,1516.0
24.28,5507.0
24.56,814.0
24.84,465.0
25.12,444.0
25.4,438.0
25.68,417.0
25.96,385.0
26.24,398.0
26.52,336.0
26.8,403.0
27.08,371.0
27.36,357.0
27.64,354.0
27.92,355.0
28.2,528.0
28.48,1509.0
28.76,562.0
29.04,351.0
29.32,388.0
29.6,845.0
29.88,1680.0
30.16,438.0
30.44,354.0
30.72,837.0
31.0,330.0
31.28,309.0
31.56,281.0
31.84,315.0
32.12,293.0
32.4,264.0
32.68,277.0
32.96,279.0
33.24,253.0
33.52,273.0
33.8,318.0
34.08,520.0
34.36,1438.0
34.64,1942.0
34.92,569.0
35.2,346.0
35.48,271.0
35.76,288.0
36.04,247.0
36.32,220.0
36.6,235.0
36.88,228.0
37.16,202.0
37.44,308.0
37.72,587.0
38.0,355.0
38.28,278.0
38.56,227.0
38.84,230.0
39.12,226.0
39.4,228.0
39.68,222.0
39.96,211.0
40.24,219.0
40.52,217.0
40.8,261.0
41.08,219.0
41.36,218.0
41.64,247.0
41.92,235.0
42.2,408.0
42.48,1223.0
42.76,1268.0
43.04,412.0
43.32,266.0
43.6,250.0
43.88,286.0
44.16,262.0
44.44,242.0
44.72,262.0
45.0,332.0
45.28,680.0
45.56,407.0
45.84,252.0
46.12,216.0
46.4,222.0
46.68,215.0
46.96,218.0
47.24,211.0
47.52,174.0
47.8,212.0
48.08,220.0
48.36,220.0
48.64,222.0
48.92,252.0
49.2,457.0
49.48,1304.0
49.76,1166.0
50.04,423.0
50.32,304.0
50.6,258.0
50.88,217.0
51.16,256.0
51.44,235.0
51.72,309.0
52.0,636.0
52.28,405.0
52.56,245.0
52.84,215.0
53.12,182.0
53.4,195.0
53.68,182.0
53.96,196.0
54.24,196.0
54.52,387.0
54.8,228.0
55.08,220.0
55.36,272.0
55.64,421.0
55.92,721.0
56.2,420.0
56.48,264.0
56.76,218.0
57.04,256.0
57.32,189.0
57.6,188.0
57.88,235.0
58.16,348.0
58.44,268.0
58.72,339.0
59.0,386.0
59.28,243.0
59.56,202.0
59.84,211.0
60.12,206.0
60.4,192.0
60.68,223.0
60.96,214.0
61.24,242.0
61.52,356.0
61.8,638.0
62.08,367.0
62.36,214.0
62.64,212.0
62.92,190.0
63.2,219.0
63.48,231.0
63.76,370.0
64.04,359.0
64.32,230.0
64.6,219.0
64.88,192.0
65.16,205.0
65.44,193.0
65.72,198.0
66.0,213.0
66.28,213.0
66.56,216.0
66.84,301.0
67.12,508.0
67.4,663.0
67.68,415.0
67.96,285.0
68.24,279.0
68.52,214.0
68.8,209.0
69.08,237.0
69.36,309.0
69.64,266.0
69.92,212.0
70.2,173.0
70.48,191.0
70.76,186.0
71.04,162.0
71.32,191.0
71.6,172.0
71.88,195.0
72.16,191.0
72.44,292.0
72.72,275.0
73.0,240.0
73.28,191.0
73.56,194.0
73.84,182.0
74.12,182.0
74.4,177.0
74.68,196.0
74.96,198.0
75.24,190.0
75.52,186.0
75.8,188.0
76.08,177.0
76.36,178.0
76.64,200.0
76.92,202.0
77.2,207.0
77.48,262.0
77.76,324.0
78.04,337.0
78.32,250.0
78.6,226.0
78.88,212.0
79.16,216.0
79.44,240.0
79.72,268.0
80.0,256.0
80.28,222.0
80.56,247.0
80.84,214.0
81.12,208.0
81.4,197.0
81.68,198.0
81.96,210.0
82.24,210.0
82.52,222.0
82.8,352.0
83.08,395.0
83.36,333.0
83.64,240.0
83.92,219.0
84.2,228.0
84.48,239.0
84.76,261.0
85.04,255.0
85.32,191.0
85.6,201.0
85.88,209.0
86.16,204.0
86.44,169.0
86.72,202.0
87.0,198.0
87.28,230.0
87.56,214.0
87.84,258.0
88.12,273.0
88.4,241.0
88.68,228.0
88.96,242.0
89.24,209.0
89.52,210.0
89.8,269.0
90.0,226.0